Folder: Fuzzy-clustering-analysis-FCA/Other original data/DIL

Note: README.md
# Fuzzy-clustering-analysis-FCA
The FCA program is constructed using the PyQt5 GUI interface, with the main_run.py file serving as the main program. The function_lib.py file serves as the function library for the main program. After saving in the main program, a text file and an image file will be saved in the output folder. The classification results for each threshold are recorded in the text file.

The data_test.xlsx file is an example of input data. The remaining three XLSX files were used in the article's research. The output file contains the results obtained from the component data analysis of the manuscript.

The specific procedure is to first open the file, then select the calibration method, enter the number of classes, and finally click the Start button.

Note: The final images in the manuscript were further processed using OriginPro software.

File: ExpDat_Sample-HNXSQ25.csv
#EXPORTTYPE:       ,DATA ALL
#FILE:             ,样品1.ngb-dla
#FORMAT:           ,NETZSCH5
#FTYPE:            ,ANSI
#IDENTITY:         ,样品1
#DECIMAL:          ,POINT
#SEPARATOR:        ,COMMA
#MTYPE:            ,DIL
#INSTRUMENT:       ,NETZSCH DIL 402SE
#PROJECT:          ,
#DATE/TIME:        ,2024/7/11 9:41:36 (UTC+8)
#CORR. FILE:       ,Al2O3-5-2.ngb-cla
#TEMPCAL:          ,TCALZERO.TMX
#LABORATORY:       ,
#OPERATOR:         ,
#REMARK:           ,
#SAMPLE:           ,样品1
#SAMPLE LENGTH /mm:,11.921
#MATERIAL:         ,
#MEASMODE:         ,Standard Expansion
#PROTECTIVE MFC:   ,NITROGEN,250.0 ml/min
#M.RANGE /μm:      ,20000
#CORR. CODE:       ,080
#RANGE:            ,25°C/5.0(K/min)/1360°C
#SEGMENT:          ,S1/1
#SEG. 1:           ,25°C/5.0(K/min)/1360°C

##Temp./°C,Time/min,dL/Lo
  25.11100,  0.00000, 3.785151e-05
  29.61100,  2.74657, 7.306377e-05
  34.11100,  3.72101, 9.678600e-05
  38.61100,  4.49818, 1.313894e-04
  43.11100,  5.19499, 1.677164e-04
  47.61100,  5.84920, 1.888961e-04
  52.11100,  6.48252, 2.120739e-04
  56.61100,  7.11358, 2.315248e-04
  61.11100,  7.75348, 2.490766e-04
  65.61100,  8.41252, 2.630766e-04
  70.11100,  9.10679, 2.752260e-04
  74.61100,  9.84382, 2.845811e-04
  79.11100, 10.63670, 2.935636e-04
  83.61100, 11.48332, 3.008471e-04
  88.11100, 12.38820, 3.088908e-04
  92.61100, 13.33300, 3.199489e-04
  97.11100, 14.30059, 3.317946e-04
 101.611, 15.27210, 3.479191e-04
 106.111, 16.22826, 3.700706e-04
 110.611, 17.16635, 3.936272e-04
 115.111, 18.08491, 4.261666e-04
 119.611, 18.98660, 4.523780e-04
 124.111, 19.87644, 4.808897e-04
 128.611, 20.75718, 5.100012e-04
 133.111, 21.63681, 5.369931e-04
 137.611, 22.51754, 5.626905e-04
 142.111, 23.40260, 5.930238e-04
 146.611, 24.29378, 6.216672e-04
 151.111, 25.19114, 6.502551e-04
 155.611, 26.09061, 6.786053e-04
 160.111, 26.99261, 7.066974e-04
 164.611, 27.89674, 7.367685e-04
 169.111, 28.80053, 7.660435e-04
 173.611, 29.70408, 7.935914e-04
 178.111, 30.60554, 8.221371e-04
 182.611, 31.50315, 8.522833e-04
 187.111, 32.40033, 8.835813e-04
 191.611, 33.29670, 9.136803e-04
 196.111, 34.19567, 9.449085e-04
 200.611, 35.09561, 9.754253e-04
 205.111, 35.99553, 1.006930e-03
 209.611, 36.89787, 1.039919e-03
 214.111, 37.79716, 1.071434e-03
 218.611, 38.69744, 1.102574e-03
 223.111, 39.59770, 1.135356e-03
 227.611, 40.49791, 1.163140e-03
 232.111, 41.39788, 1.194880e-03
 236.611, 42.29752, 1.221851e-03
 241.111, 43.19837, 1.249779e-03
 245.611, 44.09248, 1.278000e-03
 250.111, 44.99385, 1.305196e-03
 254.611, 45.89612, 1.333297e-03
 259.111, 46.79859, 1.352617e-03
 263.611, 47.70004, 1.379515e-03
 268.111, 48.59949, 1.404596e-03
 272.611, 49.49890, 1.430869e-03
 277.111, 50.40114, 1.456949e-03
 281.611, 51.30060, 1.483127e-03
 286.111, 52.20175, 1.506222e-03
 290.611, 53.10189, 1.530521e-03
 295.111, 54.00139, 1.553441e-03
 299.611, 54.90138, 1.577363e-03
 304.111, 55.80177, 1.600514e-03
 308.611, 56.70138, 1.625929e-03
 313.111, 57.60149, 1.649828e-03
 317.611, 58.50192, 1.674155e-03
 322.111, 59.40242, 1.697658e-03
 326.611, 60.30249, 1.718847e-03
 331.111, 61.20234, 1.742646e-03
 335.611, 62.10285, 1.767418e-03
 340.111, 63.00386, 1.791000e-03
 344.611, 63.90455, 1.812885e-03
 349.111, 64.80481, 1.836076e-03
 353.611, 65.70508, 1.858216e-03
 358.111, 66.60500, 1.880631e-03
 362.611, 67.50565, 1.905134e-03
 367.111, 68.40635, 1.928329e-03
 371.611, 69.30718, 1.952919e-03
 376.111, 70.20768, 1.976576e-03
 380.611, 71.10749, 2.001504e-03
 385.111, 72.00790, 2.026922e-03
 389.611, 72.90804, 2.051607e-03
 394.111, 73.80858, 2.074696e-03
 398.611, 74.70889, 2.099446e-03
 403.111, 75.60888, 2.125910e-03
 407.611, 76.51010, 2.149178e-03
 412.111, 77.40987, 2.172914e-03
 416.611, 78.31024, 2.199899e-03
 421.111, 79.21033, 2.229017e-03
 425.611, 80.11089, 2.253840e-03
 430.111, 81.01165, 2.281645e-03
 434.611, 81.91191, 2.311212e-03
 439.111, 82.81198, 2.337956e-03
 443.611, 83.71270, 2.367982e-03
 448.111, 84.61260, 2.393649e-03
 452.611, 85.51241, 2.420631e-03
 457.111, 86.41336, 2.454484e-03
 461.611, 87.31299, 2.481300e-03
 466.111, 88.21382, 2.516030e-03
 470.611, 89.11435, 2.535534e-03
 475.111, 90.01467, 2.571829e-03
 479.611, 90.91518, 2.609249e-03
 484.111, 91.81548, 2.635542e-03
 488.611, 92.71572, 2.668073e-03
 493.111, 93.61580, 2.703408e-03
 497.611, 94.51624, 2.739810e-03
 502.111, 95.41671, 2.775293e-03
 506.611, 96.31631, 2.811371e-03
 511.111, 97.21654, 2.851219e-03
 515.611, 98.11717, 2.888606e-03
 520.111, 99.01749, 2.934497e-03
 524.611, 99.91675, 2.972716e-03
 529.111,100.817, 3.018703e-03
 533.611,101.717, 3.064444e-03
 538.111,102.617, 3.116927e-03
 542.611,103.517, 3.167166e-03
 547.111,104.417, 3.221976e-03
 551.611,105.317, 3.281326e-03
 556.111,106.217, 3.344157e-03
 560.611,107.117, 3.412789e-03
 565.111,108.018, 3.494699e-03
 569.611,108.917, 3.594884e-03
 574.111,109.817, 3.685348e-03
 578.611,110.717, 3.754218e-03
 583.111,111.617, 3.799512e-03
 587.611,112.517, 3.837946e-03
 592.111,113.418, 3.868755e-03
 596.611,114.317, 3.891529e-03
 601.111,115.218, 3.909850e-03
 605.611,116.117, 3.923917e-03
 610.111,117.018, 3.939058e-03
 614.611,117.918, 3.953128e-03
 619.111,118.817, 3.964481e-03
 623.611,119.718, 3.978875e-03
 628.111,120.618, 3.991135e-03
 632.611,121.518, 4.003200e-03
 637.111,122.418, 4.013936e-03
 641.611,123.318, 4.022249e-03
 646.111,124.218, 4.033452e-03
 650.611,125.119, 4.041242e-03
 655.111,126.019, 4.052730e-03
 659.611,126.918, 4.059362e-03
 664.111,127.818, 4.065861e-03
 668.611,128.718, 4.071040e-03
 673.111,129.618, 4.080984e-03
 677.611,130.519, 4.093416e-03
 682.111,131.419, 4.100081e-03
 686.611,132.319, 4.096031e-03
 691.111,133.218, 4.119555e-03
 695.611,134.119, 4.134420e-03
 700.111,135.018, 4.143287e-03
 704.611,135.919, 4.154570e-03
 709.111,136.819, 4.170770e-03
 713.611,137.719, 4.184514e-03
 718.111,138.619, 4.197280e-03
 722.611,139.519, 4.208332e-03
 727.111,140.419, 4.221450e-03
 731.611,141.319, 4.235480e-03
 736.111,142.219, 4.249206e-03
 740.611,143.119, 4.265988e-03
 745.111,144.019, 4.275911e-03
 749.611,144.919, 4.288563e-03
 754.111,145.819, 4.305146e-03
 758.611,146.719, 4.306725e-03
 763.111,147.619, 4.324826e-03
 767.611,148.519, 4.331901e-03
 772.111,149.42, 4.354282e-03
 776.611,150.32, 4.366440e-03
 781.111,151.22, 4.378659e-03
 785.611,152.12, 4.396450e-03
 790.111,153.02, 4.410872e-03
 794.611,153.92, 4.424484e-03
 799.111,154.82, 4.440934e-03
 803.611,155.72, 4.457003e-03
 808.111,156.62, 4.476341e-03
 812.611,157.52, 4.486594e-03
 817.111,158.42, 4.504734e-03
 821.611,159.32, 4.508947e-03
 826.111,160.22, 4.523945e-03
 830.611,161.12, 4.540202e-03
 835.111,162.02, 4.555997e-03
 839.611,162.92, 4.578005e-03
 844.111,163.82, 4.597311e-03
 848.611,164.72, 4.601473e-03
 853.111,165.62, 4.617897e-03
 857.611,166.52, 4.632585e-03
 862.111,167.42, 4.653534e-03
 866.611,168.321, 4.650507e-03
 871.111,169.221, 4.658388e-03
 875.611,170.121, 4.681290e-03
 880.111,171.021, 4.678168e-03
 884.611,171.921, 4.685241e-03
 889.111,172.821, 4.696896e-03
 893.611,173.721, 4.700688e-03
 898.111,174.621, 4.704589e-03
 902.611,175.521, 4.704474e-03
 907.111,176.421, 4.710349e-03
 911.611,177.321, 4.712251e-03
 916.111,178.221, 4.715489e-03
 920.611,179.121, 4.716654e-03
 925.111,180.021, 4.716258e-03
 929.611,180.921, 4.714445e-03
 934.111,181.821, 4.714701e-03
 938.611,182.721, 4.709605e-03
 943.111,183.621, 4.705991e-03
 947.611,184.521, 4.698309e-03
 952.111,185.421, 4.691912e-03
 956.611,186.321, 4.687013e-03
 961.111,187.221, 4.677346e-03
 965.611,188.121, 4.666892e-03
 970.111,189.021, 4.657209e-03
 974.611,189.921, 4.651297e-03
 979.111,190.821, 4.650469e-03
 983.611,191.721, 4.649856e-03
 988.111,192.621, 4.652011e-03
 992.611,193.521, 4.655818e-03
 997.111,194.422, 4.657688e-03
1001.61,195.321, 4.661299e-03
1006.11,196.221, 4.663501e-03
1010.61,197.122, 4.667079e-03
1015.11,198.022, 4.670394e-03
1019.61,198.922, 4.679187e-03
1024.11,199.822, 4.675638e-03
1028.61,200.721, 4.680470e-03
1033.11,201.621, 4.683089e-03
1037.61,202.521, 4.684680e-03
1042.11,203.421, 4.689656e-03
1046.61,204.322, 4.693711e-03
1051.11,205.221, 4.696379e-03
1055.61,206.122, 4.697766e-03
1060.11,207.022, 4.699606e-03
1064.61,207.922, 4.700553e-03
1069.11,208.822, 4.700476e-03
1073.61,209.721, 4.699885e-03
1078.11,210.622, 4.700757e-03
1082.61,211.522, 4.706067e-03
1087.11,212.422, 4.714188e-03
1091.61,213.322, 4.718889e-03
1096.11,214.222, 4.729784e-03
1100.61,215.121, 4.737830e-03
1105.11,216.022, 4.745793e-03
1109.61,216.922, 4.755084e-03
1114.11,217.822, 4.764688e-03
1118.61,218.721, 4.777745e-03
1123.11,219.622, 4.793638e-03
1127.61,220.522, 4.818963e-03
1132.11,221.421, 4.852698e-03
1136.61,222.322, 4.887672e-03
1141.11,223.222, 4.885788e-03
1145.61,224.121, 4.838781e-03
1150.11,225.022, 4.735802e-03
1154.61,225.922, 4.600950e-03
1159.11,226.822, 4.520711e-03
1163.61,227.722, 4.467179e-03
1168.11,228.622, 4.421166e-03
1172.61,229.522, 4.391486e-03
1177.11,230.422, 4.361715e-03
1181.61,231.322, 4.334418e-03
1186.11,232.222, 4.316022e-03
1190.61,233.122, 4.301208e-03
1195.11,234.022, 4.282100e-03
1199.61,234.922, 4.247001e-03
1204.11,235.822, 4.212518e-03
1208.61,236.722, 4.172729e-03
1213.11,237.622, 4.129635e-03
1217.61,238.522, 4.079222e-03
1222.11,239.422, 4.028131e-03
1226.61,240.322, 3.967652e-03
1231.11,241.222, 3.896996e-03
1235.61,242.122, 3.817885e-03
1240.11,243.022, 3.721018e-03
1244.61,243.922, 3.614788e-03
1249.11,244.822, 3.490077e-03
1253.61,245.722, 3.347546e-03
1258.11,246.622, 3.142949e-03
1262.61,247.522, 2.897490e-03
1267.11,248.422, 2.648113e-03
1271.61,249.321, 2.433566e-03
1276.11,250.222, 2.261165e-03
1280.61,251.122, 2.088676e-03
1285.11,252.022, 1.911504e-03
1289.61,252.922, 1.744354e-03
1294.11,253.822, 1.600695e-03
1298.61,254.722, 1.498922e-03
1303.11,255.621, 1.409010e-03
1307.61,256.522, 1.426410e-03
1312.11,257.422, 1.529236e-03
1316.61,258.322, 1.730870e-03
1321.11,259.221, 2.086057e-03
1325.61,260.122, 2.650858e-03
1330.11,261.022, 2.993405e-03
1334.61,261.922, 2.900750e-03
1339.11,262.822, 3.070027e-03
1343.61,263.722, 2.816517e-03
1348.11,264.622, 1.940446e-03
1352.61,265.521, 1.037695e-03
1357.11,266.421, 3.062399e-04
1359.86,266.971,-8.307275e-04

File: ExpDat_Sample-HNXSQ-27.csv
#EXPORTTYPE:       ,DATA ALL
#FILE:             ,样品2.ngb-dla
#FORMAT:           ,NETZSCH5
#FTYPE:            ,ANSI
#IDENTITY:         ,样品2
#DECIMAL:          ,POINT
#SEPARATOR:        ,COMMA
#MTYPE:            ,DIL
#INSTRUMENT:       ,NETZSCH DIL 402SE
#PROJECT:          ,
#DATE/TIME:        ,2024/7/11 15:50:59 (UTC+8)
#CORR. FILE:       ,Al2O3-5-2.ngb-cla
#TEMPCAL:          ,TCALZERO.TMX
#LABORATORY:       ,
#OPERATOR:         ,
#REMARK:           ,
#SAMPLE:           ,样品2
#SAMPLE LENGTH /mm:,11.905
#MATERIAL:         ,
#MEASMODE:         ,Standard Expansion
#PROTECTIVE MFC:   ,NITROGEN,250.0 ml/min
#M.RANGE /μm:      ,20000
#CORR. CODE:       ,080
#RANGE:            ,25°C/5.0(K/min)/1360°C
#SEGMENT:          ,S1/1
#SEG. 1:           ,25°C/5.0(K/min)/1360°C

##Temp./°C,Time/min,dL/Lo
  30.44100,  0.00000, 6.044947e-05
  34.94100,  2.59007,-3.449283e-05
  39.44100,  4.04395, 4.896905e-05
  43.94100,  5.05274, 1.156024e-04
  48.44100,  5.89425, 1.688381e-04
  52.94100,  6.65561, 2.077441e-04
  57.44100,  7.37288, 2.354290e-04
  61.94100,  8.07372, 2.537513e-04
  66.44100,  8.77308, 2.631124e-04
  70.94100,  9.48464, 2.647349e-04
  75.44100, 10.22116, 2.650877e-04
  79.94100, 10.99284, 2.602584e-04
  84.44100, 11.80278, 2.546336e-04
  88.94100, 12.65558, 2.513990e-04
  93.44100, 13.54678, 2.567439e-04
  97.94100, 14.47125, 2.653983e-04
 102.441, 15.41360, 2.811574e-04
 106.941, 16.36247, 2.731106e-04
 111.441, 17.30395, 3.004259e-04
 115.941, 18.23165, 3.337536e-04
 120.441, 19.14410, 3.658676e-04
 124.941, 20.04150, 4.025980e-04
 129.441, 20.92967, 4.368079e-04
 133.941, 21.81294, 4.701555e-04
 138.441, 22.69815, 5.019159e-04
 142.941, 23.58221, 5.356923e-04
 147.441, 24.47053, 5.684858e-04
 151.941, 25.36578, 6.025086e-04
 156.441, 26.26391, 6.338780e-04
 160.941, 27.16589, 6.687487e-04
 165.441, 28.06891, 7.033570e-04
 169.941, 28.97075, 7.384860e-04
 174.441, 29.87279, 7.739914e-04
 178.941, 30.77315, 8.072696e-04
 183.441, 31.67052, 8.428463e-04
 187.941, 32.56795, 8.790238e-04
 192.441, 33.46705, 9.147740e-04
 196.941, 34.36534, 9.498667e-04
 201.441, 35.26617, 9.869131e-04
 205.941, 36.16478, 1.021109e-03
 210.441, 37.06509, 1.059232e-03
 214.941, 37.96438, 1.094263e-03
 219.441, 38.86592, 1.127605e-03
 223.941, 39.76635, 1.160710e-03
 228.441, 40.66547, 1.194577e-03
 232.941, 41.56677, 1.227959e-03
 237.441, 42.46621, 1.259395e-03
 241.941, 43.36569, 1.289250e-03
 246.441, 44.26606, 1.319221e-03
 250.941, 45.16588, 1.350380e-03
 255.441, 46.06530, 1.380684e-03
 259.941, 46.96561, 1.407959e-03
 264.441, 47.86545, 1.435859e-03
 268.941, 48.76503, 1.463466e-03
 273.441, 49.66529, 1.494425e-03
 277.941, 50.56633, 1.523412e-03
 282.441, 51.46623, 1.551715e-03
 286.941, 52.36720, 1.577767e-03
 291.441, 53.26695, 1.603389e-03
 295.941, 54.16721, 1.630362e-03
 300.441, 55.06838, 1.655128e-03
 304.941, 55.96755, 1.680850e-03
 309.441, 56.86755, 1.706680e-03
 313.941, 57.76720, 1.731840e-03
 318.441, 58.66837, 1.759341e-03
 322.941, 59.56875, 1.784739e-03
 327.441, 60.46883, 1.809839e-03
 331.941, 61.36930, 1.834374e-03
 336.441, 62.26959, 1.860483e-03
 340.941, 63.17023, 1.886499e-03
 345.441, 64.07043, 1.912618e-03
 349.941, 64.97185, 1.938386e-03
 354.441, 65.87161, 1.961196e-03
 358.941, 66.77129, 1.989322e-03
 363.441, 67.67142, 2.015285e-03
 367.941, 68.57202, 2.041648e-03
 372.441, 69.47261, 2.069095e-03
 376.941, 70.37328, 2.093749e-03
 381.441, 71.27291, 2.120013e-03
 385.941, 72.17351, 2.147047e-03
 390.441, 73.07403, 2.174379e-03
 394.941, 73.97435, 2.202391e-03
 399.441, 74.87518, 2.230395e-03
 403.941, 75.77482, 2.260516e-03
 408.441, 76.67508, 2.289282e-03
 412.941, 77.57581, 2.318350e-03
 417.441, 78.47549, 2.347818e-03
 421.941, 79.37604, 2.378931e-03
 426.441, 80.27661, 2.409760e-03
 430.941, 81.17687, 2.440829e-03
 435.441, 82.07715, 2.474293e-03
 439.941, 82.97743, 2.507936e-03
 444.441, 83.87793, 2.541551e-03
 448.941, 84.77857, 2.573149e-03
 453.441, 85.67798, 2.606502e-03
 457.941, 86.57876, 2.639940e-03
 462.441, 87.47899, 2.676626e-03
 466.941, 88.37939, 2.713495e-03
 471.441, 89.27998, 2.749920e-03
 475.941, 90.17987, 2.788240e-03
 480.441, 91.08048, 2.827589e-03
 484.941, 91.98040, 2.864976e-03
 489.441, 92.88138, 2.906687e-03
 493.941, 93.78156, 2.946388e-03
 498.441, 94.68228, 2.989628e-03
 502.941, 95.58224, 3.031726e-03
 507.441, 96.48223, 3.077173e-03
 511.941, 97.38240, 3.120754e-03
 516.441, 98.28260, 3.169844e-03
 520.941, 99.18225, 3.217913e-03
 525.441,100.082, 3.269354e-03
 529.941,100.982, 3.322663e-03
 534.441,101.883, 3.376915e-03
 538.941,102.782, 3.434121e-03
 543.441,103.682, 3.490970e-03
 547.941,104.582, 3.555806e-03
 552.441,105.482, 3.623746e-03
 556.941,106.383, 3.692527e-03
 561.441,107.282, 3.765307e-03
 565.941,108.183, 3.836874e-03
 570.441,109.082, 3.908360e-03
 574.941,109.982, 3.964738e-03
 579.441,110.882, 4.007310e-03
 583.941,111.783, 4.044354e-03
 588.441,112.683, 4.075870e-03
 592.941,113.583, 4.099152e-03
 597.441,114.483, 4.118666e-03
 601.941,115.382, 4.136152e-03
 606.441,116.283, 4.150026e-03
 610.941,117.183, 4.162465e-03
 615.441,118.083, 4.175991e-03
 619.941,118.984, 4.185595e-03
 624.441,119.883, 4.200295e-03
 628.941,120.783, 4.211664e-03
 633.441,121.684, 4.220414e-03
 637.941,122.583, 4.232743e-03
 642.441,123.483, 4.241780e-03
 646.941,124.383, 4.257080e-03
 651.441,125.283, 4.262776e-03
 655.941,126.183, 4.268527e-03
 660.441,127.083, 4.280357e-03
 664.941,127.984, 4.288023e-03
 669.441,128.884, 4.298765e-03
 673.941,129.784, 4.308628e-03
 678.441,130.684, 4.316482e-03
 682.941,131.584, 4.326061e-03
 687.441,132.484, 4.338360e-03
 691.941,133.384, 4.346437e-03
 696.441,134.284, 4.356696e-03
 700.941,135.184, 4.363372e-03
 705.441,136.084, 4.373760e-03
 709.941,136.984, 4.382802e-03
 714.441,137.884, 4.388659e-03
 718.941,138.784, 4.399139e-03
 723.441,139.684, 4.410230e-03
 727.941,140.585, 4.432117e-03
 732.441,141.484, 4.448274e-03
 736.941,142.385, 4.458828e-03
 741.441,143.285, 4.472190e-03
 745.941,144.185, 4.485501e-03
 750.441,145.085, 4.495896e-03
 754.941,145.985, 4.505169e-03
 759.441,146.884, 4.513979e-03
 763.941,147.785, 4.524155e-03
 768.441,148.685, 4.536793e-03
 772.941,149.585, 4.550505e-03
 777.441,150.485, 4.564617e-03
 781.941,151.385, 4.578544e-03
 786.441,152.285, 4.592801e-03
 790.941,153.186, 4.590103e-03
 795.441,154.085, 4.602997e-03
 799.941,154.985, 4.616412e-03
 804.441,155.885, 4.630353e-03
 808.941,156.785, 4.642335e-03
 813.441,157.686, 4.653836e-03
 817.941,158.585, 4.667675e-03
 822.441,159.485, 4.678576e-03
 826.941,160.385, 4.691857e-03
 831.441,161.285, 4.709484e-03
 835.941,162.185, 4.720053e-03
 840.441,163.086, 4.734469e-03
 844.941,163.986, 4.747362e-03
 849.441,164.885, 4.755851e-03
 853.941,165.786, 4.761586e-03
 858.441,166.686, 4.770073e-03
 862.941,167.586, 4.781438e-03
 867.441,168.486, 4.792042e-03
 871.941,169.386, 4.803575e-03
 876.441,170.286, 4.817119e-03
 880.941,171.186, 4.828340e-03
 885.441,172.086, 4.839210e-03
 889.941,172.986, 4.849536e-03
 894.441,173.887, 4.859173e-03
 898.941,174.787, 4.866494e-03
 903.441,175.687, 4.874659e-03
 907.941,176.586, 4.882404e-03
 912.441,177.486, 4.891875e-03
 916.941,178.386, 4.901187e-03
 921.441,179.286, 4.912011e-03
 925.941,180.186, 4.918225e-03
 930.441,181.086, 4.925922e-03
 934.941,181.986, 4.934897e-03
 939.441,182.887, 4.943866e-03
 943.941,183.786, 4.950104e-03
 948.441,184.687, 4.957623e-03
 952.941,185.587, 4.964333e-03
 957.441,186.487, 4.970884e-03
 961.941,187.387, 4.976592e-03
 966.441,188.287, 4.983508e-03
 970.941,189.187, 4.990047e-03
 975.441,190.087, 4.998607e-03
 979.941,190.987, 5.002891e-03
 984.441,191.887, 5.010405e-03
 988.941,192.787, 5.018217e-03
 993.441,193.687, 5.024969e-03
 997.941,194.587, 5.031298e-03
1002.44,195.487, 5.036802e-03
1006.94,196.387, 5.045035e-03
1011.44,197.287, 5.052615e-03
1015.94,198.187, 5.057688e-03
1020.44,199.087, 5.060530e-03
1024.94,199.987, 5.061649e-03
1029.44,200.887, 5.067153e-03
1033.94,201.787, 5.072039e-03
1038.44,202.687, 5.078956e-03
1042.94,203.587, 5.085157e-03
1047.44,204.487, 5.092368e-03
1051.94,205.387, 5.097507e-03
1056.44,206.287, 5.099485e-03
1060.94,207.187, 5.105185e-03
1065.44,208.087, 5.111602e-03
1069.94,208.987, 5.118945e-03
1074.44,209.887, 5.127582e-03
1078.94,210.787, 5.141227e-03
1083.44,211.687, 5.158163e-03
1087.94,212.587, 5.174283e-03
1092.44,213.487, 5.193142e-03
1096.94,214.387, 5.213723e-03
1101.44,215.288, 5.236396e-03
1105.94,216.187, 5.255526e-03
1110.44,217.088, 5.278421e-03
1114.94,217.987, 5.299027e-03
1119.44,218.887, 5.321048e-03
1123.94,219.787, 5.344770e-03
1128.44,220.687, 5.372759e-03
1132.94,221.587, 5.395038e-03
1137.44,222.487, 5.422648e-03
1141.94,223.387, 5.447328e-03
1146.44,224.287, 5.469989e-03
1150.94,225.187, 5.491252e-03
1155.44,226.088, 5.510403e-03
1159.94,226.987, 5.530748e-03
1164.44,227.887, 5.548227e-03
1168.94,228.787, 5.564894e-03
1173.44,229.687, 5.581410e-03
1177.94,230.587, 5.594552e-03
1182.44,231.488, 5.610003e-03
1186.94,232.388, 5.621221e-03
1191.44,233.287, 5.635041e-03
1195.94,234.187, 5.646873e-03
1200.44,235.087, 5.662014e-03
1204.94,235.987, 5.673442e-03
1209.44,236.887, 5.683032e-03
1213.94,237.787, 5.693890e-03
1218.44,238.687, 5.704027e-03
1222.94,239.588, 5.717656e-03
1227.44,240.487, 5.730505e-03
1231.94,241.387, 5.740861e-03
1236.44,242.287, 5.757789e-03
1240.94,243.187, 5.777595e-03
1245.44,244.087, 5.796066e-03
1249.94,244.988, 5.817048e-03
1254.44,245.887, 5.843076e-03
1258.94,246.787, 5.876429e-03
1263.44,247.687, 5.908955e-03
1267.94,248.587, 5.952254e-03
1272.44,249.487, 6.011240e-03
1276.94,250.387, 6.088614e-03
1281.44,251.288, 6.195586e-03
1285.94,252.187, 6.332668e-03
1290.44,253.087, 6.512593e-03
1294.94,253.987, 6.746970e-03
1299.44,254.887, 7.092620e-03
1303.94,255.787, 7.585654e-03
1308.44,256.687, 8.333865e-03
1312.94,257.587, 9.556982e-03
1317.44,258.487, 1.154377e-02
1321.94,259.387, 1.425779e-02
1326.44,260.287, 1.668482e-02
1330.94,261.187, 1.804347e-02
1335.44,262.087, 1.826198e-02
1339.94,262.987, 1.754043e-02
1344.44,263.887, 1.645059e-02
1348.94,264.787, 1.496038e-02
1353.44,265.687, 1.314904e-02
1357.94,266.587, 1.092291e-02
1359.94,266.986, 9.976274e-03